Folder: XRD-data/Br-Cl_phases/XRD/original (part 2)

File: 220615_180s_XRR.xy
0.00750 16545210.0
0.02250 21005490.0
0.03750 21087000.0
0.05250 19517190.0
0.06750 16669125.0
0.08250 13337940.0
0.09750 10580625.0
0.11250 9130275.0
0.12750 8551455.0
0.14250 8583795.0
0.15750 8972865.0
0.17250 9435855.0
0.18750 9963690.0
0.20250 10314645.0
0.21750 10518585.0
0.23250 10754205.0
0.24750 10870365.0
0.26250 10913100.0
0.27750 10879935.0
0.29250 10766415.0
0.30750 10572870.0
0.32250 10286925.0
0.33750 9846210.0
0.35250 9471000.0
0.36750 8826180.0
0.38250 8229870.0
0.39750 7529115.0
0.41250 6748335.0
0.42750 5918880.0
0.44250 4934490.0
0.45750 3923370.0
0.47250 2854995.0
0.48750 1873080.0
0.50250 1011780.0
0.51750 425411.0
0.53250 140996.0
0.54750 51014.0
0.56250 37675.0
0.57750 39490.0
0.59250 39241.0
0.60750 36544.0
0.62250 33648.0
0.63750 30001.0
0.65250 27668.0
0.66750 25407.0
0.68250 23039.0
0.69750 21153.0
0.71250 19557.0
0.72750 17587.0
0.74250 16393.0
0.75750 15354.0
0.77250 14089.0
0.78750 13255.0
0.80250 12226.0
0.81750 11435.0
0.83250 10593.0
0.84750 9611.0
0.86250 9017.0
0.87750 8599.0
0.89250 8013.0
0.90750 7554.0
0.92250 6913.0
0.93750 6614.0
0.95250 6323.0
0.96750 5642.0
0.98250 5504.0
0.99750 5192.0
1.01250 4885.0
1.02750 4618.0
1.04250 4388.0
1.05750 4006.0
1.07250 3902.0
1.08750 3767.0
1.10250 3519.0
1.11750 3369.0
1.13250 3185.0
1.14750 2980.0
1.16250 2892.0
1.17750 2766.0
1.19250 2599.0
1.20750 2447.0
1.22250 2350.0
1.23750 2277.0
1.25250 2171.0
1.26750 2032.0
1.28250 1984.0
1.29750 1884.0
1.31250 1724.0
1.32750 1744.0
1.34250 1639.0
1.35750 1678.0
1.37250 1470.0
1.38750 1414.0
1.40250 1397.0
1.41750 1310.0
1.43250 1302.0
1.44750 1226.0
1.46250 1223.0
1.47750 1078.0
1.49250 1108.0
1.50750 1092.0
1.52250 983.0
1.53750 992.0
1.55250 918.0
1.56750 927.0
1.58250 872.0
1.59750 805.0
1.61250 851.0
1.62750 800.0
1.64250 710.0
1.65750 711.0
1.67250 727.0
1.68750 690.0
1.70250 631.0
1.71750 647.0
1.73250 600.0
1.74750 574.0
1.76250 563.0
1.77750 535.0
1.79250 565.0
1.80750 493.0
1.82250 464.0
1.83750 518.0
1.85250 484.0
1.86750 436.0
1.88250 422.0
1.89750 404.0
1.91250 384.0
1.92750 447.0
1.94250 388.0
1.95750 381.0
1.97250 397.0
1.98750 354.0

File: 220615_300s_GIXRD.xy
10.0116 367.0
10.1692 382.0
10.3268 359.0
10.4843 397.0
10.6419 394.0
10.7994 387.0
10.957 317.0
11.1146 317.0
11.2721 349.0
11.4297 335.0
11.5873 347.0
11.7448 323.0
11.9024 339.0
12.06 329.0
12.2175 354.0
12.3751 370.0
12.5326 325.0
12.6902 346.0
12.8478 327.0
13.0053 359.0
13.1629 318.0
13.3205 304.0
13.478 335.0
13.6356 295.0
13.7932 316.0
13.9507 305.0
14.1083 263.0
14.2658 294.0
14.4234 296.0
14.581 307.0
14.7385 359.0
14.8961 399.0
15.0537 521.0
15.2112 613.0
15.3688 712.0
15.5263 716.0
15.6839 697.0
15.8415 697.0
15.999 525.0
16.1566 301.0
16.3142 299.0
16.4717 279.0
16.6293 238.0
16.7869 267.0
16.9444 270.0
17.102 291.0
17.2595 275.0
17.4171 249.0
17.5747 262.0
17.7322 262.0
17.8898 232.0
18.0474 299.0
18.2049 289.0
18.3625 263.0
18.5201 298.0
18.6776 278.0
18.8352 251.0
18.9927 282.0
19.1503 280.0
19.3079 307.0
19.4654 272.0
19.623 287.0
19.7806 290.0
19.9381 299.0
20.0957 319.0
20.2533 310.0
20.4108 306.0
20.5684 301.0
20.7259 322.0
20.8835 314.0
21.0411 349.0
21.1986 400.0
21.3562 449.0
21.5138 547.0
21.6713 603.0
21.8289 624.0
21.9864 631.0
22.144 667.0
22.3016 592.0
22.4591 550.0
22.6167 497.0
22.7743 372.0
22.9318 291.0
23.0894 247.0
23.247 283.0
23.4045 275.0
23.5621 275.0
23.7196 271.0
23.8772 231.0
24.0348 223.0
24.1923 251.0
24.3499 231.0
24.5075 230.0
24.665 250.0
24.8226 244.0
24.9802 255.0
25.1377 264.0
25.2953 254.0
25.4528 223.0
25.6104 215.0
25.768 185.0
25.9255 203.0
26.0831 195.0
26.2407 210.0
26.3982 186.0
26.5558 191.0
26.7133 221.0
26.8709 181.0
27.0285 205.0
27.186 209.0
27.3436 188.0
27.5012 167.0
27.6587 159.0
27.8163 198.0
27.9739 185.0
28.1314 165.0
28.289 199.0
28.4465 160.0
28.6041 192.0
28.7617 168.0
28.9192 195.0
29.0768 195.0
29.2344 205.0
29.3919 192.0
29.5495 202.0
29.7071 208.0
29.8646 212.0
30.0222 231.0
30.1797 308.0
30.3373 359.0
30.4949 446.0
30.6524 523.0
30.81 637.0
30.9676 686.0
31.1251 760.0
31.2827 837.0
31.4403 763.0
31.5978 809.0
31.7554 791.0
31.9129 736.0
32.0705 655.0
32.2281 585.0
32.3856 354.0
32.5432 231.0
32.7008 169.0
32.8583 163.0
33.0159 160.0
33.1734 169.0
33.331 132.0
33.4886 146.0
33.6461 145.0
33.8037 169.0
33.9613 158.0
34.1188 175.0
34.2764 173.0
34.434 201.0
34.5915 183.0
34.7491 195.0
34.9066 183.0
35.0642 179.0
35.2218 195.0
35.3793 212.0
35.5369 212.0
35.6945 189.0
35.852 167.0
36.0096 175.0
36.1672 159.0
36.3247 122.0
36.4823 148.0
36.6398 141.0
36.7974 108.0
36.955 121.0
37.1125 133.0
37.2701 140.0
37.4277 166.0
37.5852 178.0
37.7428 188.0
37.9004 205.0
38.0579 221.0
38.2155 279.0
38.373 239.0
38.5306 264.0
38.6882 246.0
38.8457 246.0
39.0033 250.0
39.1609 268.0
39.3184 279.0
39.476 230.0
39.6335 200.0
39.7911 192.0
39.9487 136.0
40.1062 119.0
40.2638 101.0
40.4214 123.0
40.5789 120.0
40.7365 104.0
40.8941 112.0
41.0516 89.0
41.2092 112.0
41.3667 89.0
41.5243 110.0
41.6819 102.0
41.8394 100.0
41.997 77.0
42.1546 76.0
42.3121 113.0
42.4697 99.0
42.6273 91.0
42.7848 87.0
42.9424 95.0
43.0999 99.0
43.2575 92.0
43.4151 118.0
43.5726 125.0
43.7302 148.0
43.8878 129.0
44.0453 139.0
44.2029 152.0
44.3604 156.0
44.518 125.0
44.6756 175.0
44.8331 183.0
44.9907 179.0
45.1483 165.0
45.3058 186.0
45.4634 173.0
45.621 186.0
45.7785 188.0
45.9361 149.0
46.0936 158.0
46.2512 135.0
46.4088 123.0
46.5663 124.0
46.7239 85.0
46.8815 121.0
47.039 117.0
47.1966 120.0
47.3542 99.0
47.5117 116.0
47.6693 101.0
47.8268 119.0
47.9844 129.0
48.142 96.0
48.2995 106.0
48.4571 110.0
48.6147 99.0
48.7722 99.0
48.9298 104.0
49.0874 124.0
49.2449 126.0
49.4025 134.0
49.56 123.0
49.7176 119.0
49.8752 144.0
50.0065 115.0

File: Si-reference_GIXRD.xy
10.0116 1263.0
10.1692 1250.0
10.3268 1269.0
10.4843 1262.0
10.6419 1220.0
10.7994 1278.0
10.957 1193.0
11.1146 1255.0
11.2721 1259.0
11.4297 1276.0
11.5873 1229.0
11.7448 1309.0
11.9024 1320.0
12.06 1317.0
12.2175 1293.0
12.3751 1328.0
12.5326 1315.0
12.6902 1276.0
12.8478 1240.0
13.0053 1295.0
13.1629 1338.0
13.3205 1354.0
13.478 1317.0
13.6356 1308.0
13.7932 1348.0
13.9507 1413.0
14.1083 1398.0
14.2658 1415.0
14.4234 1408.0
14.581 1408.0
14.7385 1368.0
14.8961 1395.0
15.0537 1463.0
15.2112 1466.0
15.3688 1445.0
15.5263 1498.0
15.6839 1496.0
15.8415 1537.0
15.999 1532.0
16.1566 1564.0
16.3142 1514.0
16.4717 1636.0
16.6293 1657.0
16.7869 1629.0
16.9444 1712.0
17.102 1785.0
17.2595 1694.0
17.4171 1778.0
17.5747 1756.0
17.7322 1701.0
17.8898 1812.0
18.0474 1734.0
18.2049 1807.0
18.3625 1811.0
18.5201 1920.0
18.6776 1850.0
18.8352 1887.0
18.9927 1928.0
19.1503 1870.0
19.3079 1890.0
19.4654 1869.0
19.623 1925.0
19.7806 1958.0
19.9381 1930.0
20.0957 1953.0
20.2533 1829.0
20.4108 1862.0
20.5684 1907.0
20.7259 1858.0
20.8835 1791.0
21.0411 1805.0
21.1986 1852.0
21.3562 1792.0
21.5138 1730.0
21.6713 1701.0
21.8289 1695.0
21.9864 1610.0
22.144 1616.0
22.3016 1538.0
22.4591 1612.0
22.6167 1474.0
22.7743 1526.0
22.9318 1505.0
23.0894 1525.0
23.247 1462.0
23.4045 1407.0
23.5621 1399.0
23.7196 1372.0
23.8772 1347.0
24.0348 1358.0
24.1923 1270.0
24.3499 1279.0
24.5075 1246.0
24.665 1289.0
24.8226 1209.0
24.9802 1210.0
25.1377 1187.0
25.2953 1154.0
25.4528 1176.0
25.6104 1100.0
25.768 1067.0
25.9255 1138.0
26.0831 1121.0
26.2407 1049.0
26.3982 1063.0
26.5558 1049.0
26.7133 1076.0
26.8709 1116.0
27.0285 1315.0
27.186 2011.0
27.3436 1613.0
27.5012 1663.0
27.6587 1655.0
27.8163 1812.0
27.9739 1828.0
28.1314 2054.0
28.289 2000.0
28.4465 2221.0
28.6041 2257.0
28.7617 3552.0
28.9192 2524.0
29.0768 3746.0
29.2344 1665.0
29.3919 993.0
29.5495 900.0
29.7071 884.0
29.8646 847.0
30.0222 865.0
30.1797 836.0
30.3373 830.0
30.4949 884.0
30.6524 797.0
30.81 822.0
30.9676 850.0
31.1251 825.0
31.2827 796.0
31.4403 814.0
31.5978 761.0
31.7554 854.0
31.9129 809.0
32.0705 731.0
32.2281 778.0
32.3856 780.0
32.5432 758.0
32.7008 780.0
32.8583 789.0
33.0159 797.0
33.1734 784.0
33.331 742.0
33.4886 727.0
33.6461 713.0
33.8037 725.0
33.9613 704.0
34.1188 708.0
34.2764 668.0
34.434 667.0
34.5915 659.0
34.7491 671.0
34.9066 684.0
35.0642 678.0
35.2218 694.0
35.3793 673.0
35.5369 640.0
35.6945 654.0
35.852 649.0
36.0096 626.0
36.1672 653.0
36.3247 663.0
36.4823 628.0
36.6398 639.0
36.7974 643.0
36.955 595.0
37.1125 640.0
37.2701 657.0
37.4277 654.0
37.5852 566.0
37.7428 618.0
37.9004 596.0
38.0579 594.0
38.2155 637.0
38.373 591.0
38.5306 605.0
38.6882 571.0
38.8457 618.0
39.0033 553.0
39.1609 621.0
39.3184 612.0
39.476 610.0
39.6335 574.0
39.7911 612.0
39.9487 582.0
40.1062 591.0
40.2638 563.0
40.4214 582.0
40.5789 621.0
40.7365 591.0
40.8941 586.0
41.0516 543.0
41.2092 610.0
41.3667 610.0
41.5243 515.0
41.6819 553.0
41.8394 587.0
41.997 550.0
42.1546 577.0
42.3121 592.0
42.4697 569.0
42.6273 562.0
42.7848 526.0
42.9424 601.0
43.0999 581.0
43.2575 564.0
43.4151 591.0
43.5726 609.0
43.7302 607.0
43.8878 588.0
44.0453 580.0
44.2029 590.0
44.3604 586.0
44.518 603.0
44.6756 590.0
44.8331 601.0
44.9907 671.0
45.1483 610.0
45.3058 662.0
45.4634 697.0
45.621 735.0
45.7785 778.0
45.9361 767.0
46.0936 760.0
46.2512 863.0
46.4088 884.0
46.5663 834.0
46.7239 961.0
46.8815 1000.0
47.039 866.0
47.1966 1416.0
47.3542 1489.0
47.5117 1177.0
47.6693 1150.0
47.8268 1183.0
47.9844 1217.0
48.142 1225.0
48.2995 1299.0
48.4571 1187.0
48.6147 726.0
48.7722 544.0
48.9298 478.0
49.0874 448.0
49.2449 490.0
49.4025 450.0
49.56 439.0
49.7176 423.0
49.8752 487.0
50.0065 427.0