Folder: XRD-data/Br-Cl_phases/XRD/original

File: 220615_0s_GIXRD.xy
10.0116 367.0
10.1692 416.0
10.3268 370.0
10.4843 361.0
10.6419 375.0
10.7994 361.0
10.957 360.0
11.1146 354.0
11.2721 333.0
11.4297 360.0
11.5873 347.0
11.7448 356.0
11.9024 355.0
12.06 315.0
12.2175 328.0
12.3751 338.0
12.5326 340.0
12.6902 344.0
12.8478 339.0
13.0053 318.0
13.1629 317.0
13.3205 301.0
13.478 344.0
13.6356 308.0
13.7932 286.0
13.9507 282.0
14.1083 266.0
14.2658 296.0
14.4234 299.0
14.581 421.0
14.7385 460.0
14.8961 584.0
15.0537 644.0
15.2112 619.0
15.3688 628.0
15.5263 530.0
15.6839 367.0
15.8415 278.0
15.999 283.0
16.1566 239.0
16.3142 263.0
16.4717 275.0
16.6293 285.0
16.7869 252.0
16.9444 276.0
17.102 231.0
17.2595 292.0
17.4171 300.0
17.5747 264.0
17.7322 260.0
17.8898 271.0
18.0474 264.0
18.2049 249.0
18.3625 282.0
18.5201 249.0
18.6776 308.0
18.8352 267.0
18.9927 279.0
19.1503 291.0
19.3079 309.0
19.4654 312.0
19.623 281.0
19.7806 306.0
19.9381 302.0
20.0957 323.0
20.2533 292.0
20.4108 308.0
20.5684 332.0
20.7259 410.0
20.8835 539.0
21.0411 649.0
21.1986 750.0
21.3562 731.0
21.5138 766.0
21.6713 799.0
21.8289 753.0
21.9864 678.0
22.144 612.0
22.3016 384.0
22.4591 355.0
22.6167 292.0
22.7743 245.0
22.9318 297.0
23.0894 275.0
23.247 292.0
23.4045 257.0
23.5621 280.0
23.7196 272.0
23.8772 331.0
24.0348 296.0
24.1923 281.0
24.3499 272.0
24.5075 292.0
24.665 289.0
24.8226 277.0
24.9802 270.0
25.1377 267.0
25.2953 267.0
25.4528 247.0
25.6104 272.0
25.768 249.0
25.9255 258.0
26.0831 254.0
26.2407 217.0
26.3982 231.0
26.5558 204.0
26.7133 228.0
26.8709 231.0
27.0285 195.0
27.186 206.0
27.3436 182.0
27.5012 189.0
27.6587 199.0
27.8163 198.0
27.9739 187.0
28.1314 206.0
28.289 212.0
28.4465 229.0
28.6041 203.0
28.7617 207.0
28.9192 200.0
29.0768 195.0
29.2344 222.0
29.3919 248.0
29.5495 314.0
29.7071 377.0
29.8646 402.0
30.0222 467.0
30.1797 577.0
30.3373 580.0
30.4949 574.0
30.6524 592.0
30.81 599.0
30.9676 612.0
31.1251 562.0
31.2827 505.0
31.4403 539.0
31.5978 321.0
31.7554 201.0
31.9129 185.0
32.0705 160.0
32.2281 153.0
32.3856 142.0
32.5432 140.0
32.7008 146.0
32.8583 147.0
33.0159 141.0
33.1734 175.0
33.331 188.0
33.4886 200.0
33.6461 212.0
33.8037 210.0
33.9613 221.0
34.1188 275.0
34.2764 249.0
34.434 245.0
34.5915 230.0
34.7491 248.0
34.9066 223.0
35.0642 214.0
35.2218 204.0
35.3793 176.0
35.5369 170.0
35.6945 140.0
35.852 120.0
36.0096 118.0
36.1672 118.0
36.3247 179.0
36.4823 171.0
36.6398 192.0
36.7974 191.0
36.955 251.0
37.1125 249.0
37.2701 251.0
37.4277 270.0
37.5852 287.0
37.7428 274.0
37.9004 286.0
38.0579 303.0
38.2155 310.0
38.373 284.0
38.5306 256.0
38.6882 254.0
38.8457 183.0
39.0033 164.0
39.1609 120.0
39.3184 115.0
39.476 118.0
39.6335 106.0
39.7911 110.0
39.9487 115.0
40.1062 126.0
40.2638 101.0
40.4214 86.0
40.5789 87.0
40.7365 88.0
40.8941 84.0
41.0516 81.0
41.2092 91.0
41.3667 105.0
41.5243 107.0
41.6819 105.0
41.8394 122.0
41.997 104.0
42.1546 106.0
42.3121 123.0
42.4697 163.0
42.6273 120.0
42.7848 155.0
42.9424 176.0
43.0999 182.0
43.2575 163.0
43.4151 195.0
43.5726 235.0
43.7302 210.0
43.8878 217.0
44.0453 226.0
44.2029 215.0
44.3604 204.0
44.518 226.0
44.6756 234.0
44.8331 192.0
44.9907 167.0
45.1483 184.0
45.3058 169.0
45.4634 139.0
45.621 130.0
45.7785 120.0
45.9361 137.0
46.0936 165.0
46.2512 165.0
46.4088 145.0
46.5663 134.0
46.7239 121.0
46.8815 125.0
47.039 135.0
47.1966 145.0
47.3542 125.0
47.5117 139.0
47.6693 128.0
47.8268 132.0
47.9844 134.0
48.142 122.0
48.2995 127.0
48.4571 114.0
48.6147 131.0
48.7722 133.0
48.9298 132.0
49.0874 125.0
49.2449 155.0
49.4025 150.0
49.56 128.0
49.7176 139.0
49.8752 144.0
50.0065 122.0

File: 220615_8s_GIXRD.xy
10.0116 366.0
10.1692 359.0
10.3268 346.0
10.4843 331.0
10.6419 386.0
10.7994 368.0
10.957 380.0
11.1146 367.0
11.2721 377.0
11.4297 377.0
11.5873 338.0
11.7448 337.0
11.9024 358.0
12.06 329.0
12.2175 362.0
12.3751 385.0
12.5326 352.0
12.6902 371.0
12.8478 355.0
13.0053 343.0
13.1629 306.0
13.3205 271.0
13.478 308.0
13.6356 307.0
13.7932 311.0
13.9507 282.0
14.1083 318.0
14.2658 269.0
14.4234 343.0
14.581 318.0
14.7385 460.0
14.8961 676.0
15.0537 748.0
15.2112 843.0
15.3688 875.0
15.5263 831.0
15.6839 734.0
15.8415 535.0
15.999 302.0
16.1566 276.0
16.3142 307.0
16.4717 291.0
16.6293 275.0
16.7869 279.0
16.9444 257.0
17.102 266.0
17.2595 252.0
17.4171 267.0
17.5747 245.0
17.7322 289.0
17.8898 278.0
18.0474 253.0
18.2049 276.0
18.3625 273.0
18.5201 283.0
18.6776 322.0
18.8352 285.0
18.9927 272.0
19.1503 326.0
19.3079 334.0
19.4654 288.0
19.623 304.0
19.7806 323.0
19.9381 293.0
20.0957 295.0
20.2533 310.0
20.4108 300.0
20.5684 336.0
20.7259 351.0
20.8835 362.0
21.0411 455.0
21.1986 563.0
21.3562 597.0
21.5138 668.0
21.6713 598.0
21.8289 620.0
21.9864 619.0
22.144 576.0
22.3016 512.0
22.4591 420.0
22.6167 313.0
22.7743 277.0
22.9318 267.0
23.0894 242.0
23.247 290.0
23.4045 282.0
23.5621 242.0
23.7196 303.0
23.8772 306.0
24.0348 300.0
24.1923 293.0
24.3499 286.0
24.5075 285.0
24.665 259.0
24.8226 252.0
24.9802 254.0
25.1377 247.0
25.2953 249.0
25.4528 259.0
25.6104 236.0
25.768 227.0
25.9255 216.0
26.0831 225.0
26.2407 221.0
26.3982 213.0
26.5558 186.0
26.7133 214.0
26.8709 204.0
27.0285 194.0
27.186 200.0
27.3436 200.0
27.5012 207.0
27.6587 204.0
27.8163 207.0
27.9739 226.0
28.1314 218.0
28.289 207.0
28.4465 207.0
28.6041 206.0
28.7617 184.0
28.9192 178.0
29.0768 221.0
29.2344 209.0
29.3919 241.0
29.5495 214.0
29.7071 279.0
29.8646 392.0
30.0222 421.0
30.1797 519.0
30.3373 675.0
30.4949 757.0
30.6524 777.0
30.81 807.0
30.9676 835.0
31.1251 837.0
31.2827 808.0
31.4403 819.0
31.5978 779.0
31.7554 623.0
31.9129 561.0
32.0705 335.0
32.2281 189.0
32.3856 169.0
32.5432 179.0
32.7008 151.0
32.8583 163.0
33.0159 127.0
33.1734 166.0
33.331 152.0
33.4886 186.0
33.6461 211.0
33.8037 193.0
33.9613 196.0
34.1188 197.0
34.2764 224.0
34.434 228.0
34.5915 199.0
34.7491 242.0
34.9066 240.0
35.0642 211.0
35.2218 199.0
35.3793 201.0
35.5369 173.0
35.6945 186.0
35.852 157.0
36.0096 140.0
36.1672 133.0
36.3247 121.0
36.4823 163.0
36.6398 127.0
36.7974 148.0
36.955 155.0
37.1125 227.0
37.2701 220.0
37.4277 217.0
37.5852 244.0
37.7428 228.0
37.9004 265.0
38.0579 253.0
38.2155 273.0
38.373 277.0
38.5306 255.0
38.6882 260.0
38.8457 235.0
39.0033 213.0
39.1609 221.0
39.3184 187.0
39.476 143.0
39.6335 122.0
39.7911 113.0
39.9487 122.0
40.1062 108.0
40.2638 83.0
40.4214 109.0
40.5789 98.0
40.7365 123.0
40.8941 105.0
41.0516 122.0
41.2092 112.0
41.3667 110.0
41.5243 113.0
41.6819 87.0
41.8394 99.0
41.997 86.0
42.1546 100.0
42.3121 114.0
42.4697 106.0
42.6273 115.0
42.7848 126.0
42.9424 139.0
43.0999 121.0
43.2575 144.0
43.4151 142.0
43.5726 165.0
43.7302 164.0
43.8878 167.0
44.0453 163.0
44.2029 180.0
44.3604 155.0
44.518 174.0
44.6756 188.0
44.8331 164.0
44.9907 190.0
45.1483 175.0
45.3058 171.0
45.4634 179.0
45.621 139.0
45.7785 120.0
45.9361 129.0
46.0936 132.0
46.2512 112.0
46.4088 131.0
46.5663 150.0
46.7239 126.0
46.8815 121.0
47.039 143.0
47.1966 107.0
47.3542 114.0
47.5117 123.0
47.6693 122.0
47.8268 123.0
47.9844 112.0
48.142 130.0
48.2995 147.0
48.4571 125.0
48.6147 117.0
48.7722 115.0
48.9298 134.0
49.0874 139.0
49.2449 131.0
49.4025 131.0
49.56 147.0
49.7176 129.0
49.8752 135.0
50.0065 152.0

File: 220615_13s_GIXRD.xy
10.0116 340.0
10.1692 371.0
10.3268 404.0
10.4843 350.0
10.6419 363.0
10.7994 368.0
10.957 346.0
11.1146 350.0
11.2721 367.0
11.4297 379.0
11.5873 354.0
11.7448 324.0
11.9024 321.0
12.06 329.0
12.2175 326.0
12.3751 350.0
12.5326 326.0
12.6902 340.0
12.8478 323.0
13.0053 329.0
13.1629 297.0
13.3205 311.0
13.478 305.0
13.6356 319.0
13.7932 283.0
13.9507 282.0
14.1083 287.0
14.2658 300.0
14.4234 296.0
14.581 283.0
14.7385 296.0
14.8961 304.0
15.0537 400.0
15.2112 515.0
15.3688 605.0
15.5263 629.0
15.6839 685.0
15.8415 596.0
15.999 411.0
16.1566 299.0
16.3142 281.0
16.4717 267.0
16.6293 276.0
16.7869 270.0
16.9444 236.0
17.102 237.0
17.2595 274.0
17.4171 294.0
17.5747 276.0
17.7322 255.0
17.8898 277.0
18.0474 296.0
18.2049 274.0
18.3625 273.0
18.5201 280.0
18.6776 288.0
18.8352 316.0
18.9927 287.0
19.1503 265.0
19.3079 289.0
19.4654 301.0
19.623 288.0
19.7806 309.0
19.9381 274.0
20.0957 293.0
20.2533 307.0
20.4108 312.0
20.5684 282.0
20.7259 298.0
20.8835 298.0
21.0411 345.0
21.1986 378.0
21.3562 572.0
21.5138 905.0
21.6713 1039.0
21.8289 1106.0
21.9864 1094.0
22.144 1081.0
22.3016 1088.0
22.4591 1000.0
22.6167 829.0
22.7743 459.0
22.9318 329.0
23.0894 305.0
23.247 276.0
23.4045 273.0
23.5621 235.0
23.7196 232.0
23.8772 272.0
24.0348 260.0
24.1923 235.0
24.3499 247.0
24.5075 230.0
24.665 231.0
24.8226 245.0
24.9802 233.0
25.1377 221.0
25.2953 250.0
25.4528 218.0
25.6104 239.0
25.768 246.0
25.9255 213.0
26.0831 213.0
26.2407 207.0
26.3982 206.0
26.5558 176.0
26.7133 190.0
26.8709 181.0
27.0285 173.0
27.186 200.0
27.3436 193.0
27.5012 175.0
27.6587 180.0
27.8163 175.0
27.9739 192.0
28.1314 193.0
28.289 166.0
28.4465 162.0
28.6041 170.0
28.7617 193.0
28.9192 177.0
29.0768 186.0
29.2344 181.0
29.3919 166.0
29.5495 195.0
29.7071 167.0
29.8646 170.0
30.0222 173.0
30.1797 215.0
30.3373 230.0
30.4949 235.0
30.6524 373.0
30.81 436.0
30.9676 477.0
31.1251 500.0
31.2827 544.0
31.4403 580.0
31.5978 557.0
31.7554 556.0
31.9129 555.0
32.0705 502.0
32.2281 431.0
32.3856 277.0
32.5432 165.0
32.7008 163.0
32.8583 132.0
33.0159 165.0
33.1734 141.0
33.331 158.0
33.4886 130.0
33.6461 141.0
33.8037 129.0
33.9613 138.0
34.1188 126.0
34.2764 156.0
34.434 159.0
34.5915 162.0
34.7491 189.0
34.9066 203.0
35.0642 199.0
35.2218 184.0
35.3793 201.0
35.5369 210.0
35.6945 162.0
35.852 185.0
36.0096 181.0
36.1672 151.0
36.3247 135.0
36.4823 119.0
36.6398 124.0
36.7974 127.0
36.955 111.0
37.1125 118.0
37.2701 118.0
37.4277 139.0
37.5852 167.0
37.7428 193.0
37.9004 229.0
38.0579 256.0
38.2155 290.0
38.373 295.0
38.5306 287.0
38.6882 292.0
38.8457 330.0
39.0033 330.0
39.1609 292.0
39.3184 259.0
39.476 280.0
39.6335 240.0
39.7911 172.0
39.9487 134.0
40.1062 117.0
40.2638 106.0
40.4214 103.0
40.5789 100.0
40.7365 98.0
40.8941 110.0
41.0516 98.0
41.2092 114.0
41.3667 101.0
41.5243 97.0
41.6819 103.0
41.8394 93.0
41.997 112.0
42.1546 80.0
42.3121 127.0
42.4697 100.0
42.6273 88.0
42.7848 85.0
42.9424 95.0
43.0999 100.0
43.2575 104.0
43.4151 115.0
43.5726 95.0
43.7302 121.0
43.8878 173.0
44.0453 154.0
44.2029 165.0
44.3604 166.0
44.518 184.0
44.6756 209.0
44.8331 201.0
44.9907 207.0
45.1483 205.0
45.3058 161.0
45.4634 199.0
45.621 189.0
45.7785 167.0
45.9361 173.0
46.0936 148.0
46.2512 142.0
46.4088 122.0
46.5663 116.0
46.7239 114.0
46.8815 107.0
47.039 110.0
47.1966 107.0
47.3542 132.0
47.5117 121.0
47.6693 94.0
47.8268 145.0
47.9844 112.0
48.142 91.0
48.2995 122.0
48.4571 110.0
48.6147 98.0
48.7722 130.0
48.9298 116.0
49.0874 118.0
49.2449 111.0
49.4025 106.0
49.56 132.0
49.7176 144.0
49.8752 131.0
50.0065 142.0

File: 220615_25s_GIXRD.xy
10.0116 382.0
10.1692 373.0
10.3268 378.0
10.4843 355.0
10.6419 379.0
10.7994 349.0
10.957 354.0
11.1146 345.0
11.2721 364.0
11.4297 342.0
11.5873 368.0
11.7448 345.0
11.9024 328.0
12.06 376.0
12.2175 342.0
12.3751 344.0
12.5326 340.0
12.6902 315.0
12.8478 352.0
13.0053 336.0
13.1629 319.0
13.3205 302.0
13.478 290.0
13.6356 290.0
13.7932 309.0
13.9507 282.0
14.1083 306.0
14.2658 323.0
14.4234 279.0
14.581 315.0
14.7385 410.0
14.8961 478.0
15.0537 511.0
15.2112 553.0
15.3688 547.0
15.5263 516.0
15.6839 487.0
15.8415 339.0
15.999 275.0
16.1566 281.0
16.3142 233.0
16.4717 261.0
16.6293 279.0
16.7869 277.0
16.9444 271.0
17.102 285.0
17.2595 264.0
17.4171 280.0
17.5747 255.0
17.7322 258.0
17.8898 259.0
18.0474 241.0
18.2049 254.0
18.3625 253.0
18.5201 265.0
18.6776 299.0
18.8352 294.0
18.9927 284.0
19.1503 281.0
19.3079 243.0
19.4654 318.0
19.623 305.0
19.7806 279.0
19.9381 316.0
20.0957 323.0
20.2533 287.0
20.4108 309.0
20.5684 301.0
20.7259 330.0
20.8835 369.0
21.0411 427.0
21.1986 638.0
21.3562 766.0
21.5138 733.0
21.6713 769.0
21.8289 754.0
21.9864 752.0
22.144 734.0
22.3016 618.0
22.4591 441.0
22.6167 321.0
22.7743 319.0
22.9318 309.0
23.0894 280.0
23.247 256.0
23.4045 273.0
23.5621 266.0
23.7196 277.0
23.8772 255.0
24.0348 282.0
24.1923 287.0
24.3499 244.0
24.5075 269.0
24.665 256.0
24.8226 287.0
24.9802 287.0
25.1377 253.0
25.2953 229.0
25.4528 243.0
25.6104 213.0
25.768 247.0
25.9255 223.0
26.0831 229.0
26.2407 225.0
26.3982 231.0
26.5558 237.0
26.7133 217.0
26.8709 215.0
27.0285 193.0
27.186 205.0
27.3436 180.0
27.5012 185.0
27.6587 190.0
27.8163 220.0
27.9739 210.0
28.1314 208.0
28.289 172.0
28.4465 206.0
28.6041 189.0
28.7617 192.0
28.9192 198.0
29.0768 204.0
29.2344 192.0
29.3919 208.0
29.5495 235.0
29.7071 276.0
29.8646 305.0
30.0222 359.0
30.1797 476.0
30.3373 506.0
30.4949 547.0
30.6524 563.0
30.81 588.0
30.9676 580.0
31.1251 553.0
31.2827 555.0
31.4403 570.0
31.5978 528.0
31.7554 455.0
31.9129 360.0
32.0705 229.0
32.2281 170.0
32.3856 157.0
32.5432 142.0
32.7008 132.0
32.8583 139.0
33.0159 127.0
33.1734 167.0
33.331 142.0
33.4886 144.0
33.6461 166.0
33.8037 165.0
33.9613 198.0
34.1188 198.0
34.2764 210.0
34.434 226.0
34.5915 221.0
34.7491 212.0
34.9066 194.0
35.0642 208.0
35.2218 218.0
35.3793 198.0
35.5369 165.0
35.6945 165.0
35.852 131.0
36.0096 148.0
36.1672 122.0
36.3247 127.0
36.4823 114.0
36.6398 133.0
36.7974 123.0
36.955 183.0
37.1125 215.0
37.2701 211.0
37.4277 273.0
37.5852 281.0
37.7428 267.0
37.9004 271.0
38.0579 330.0
38.2155 298.0
38.373 276.0
38.5306 328.0
38.6882 272.0
38.8457 251.0
39.0033 221.0
39.1609 225.0
39.3184 176.0
39.476 137.0
39.6335 122.0
39.7911 115.0
39.9487 123.0
40.1062 110.0
40.2638 105.0
40.4214 108.0
40.5789 79.0
40.7365 98.0
40.8941 122.0
41.0516 88.0
41.2092 110.0
41.3667 97.0
41.5243 108.0
41.6819 94.0
41.8394 96.0
41.997 110.0
42.1546 119.0
42.3121 112.0
42.4697 94.0
42.6273 112.0
42.7848 125.0
42.9424 125.0
43.0999 151.0
43.2575 175.0
43.4151 167.0
43.5726 187.0
43.7302 176.0
43.8878 207.0
44.0453 209.0
44.2029 205.0
44.3604 206.0
44.518 184.0
44.6756 223.0
44.8331 202.0
44.9907 195.0
45.1483 201.0
45.3058 197.0
45.4634 184.0
45.621 157.0
45.7785 141.0
45.9361 112.0
46.0936 127.0
46.2512 121.0
46.4088 125.0
46.5663 133.0
46.7239 139.0
46.8815 129.0
47.039 117.0
47.1966 120.0
47.3542 116.0
47.5117 107.0
47.6693 139.0
47.8268 120.0
47.9844 128.0
48.142 110.0
48.2995 115.0
48.4571 128.0
48.6147 114.0
48.7722 117.0
48.9298 129.0
49.0874 117.0
49.2449 128.0
49.4025 141.0
49.56 136.0
49.7176 118.0
49.8752 126.0
50.0065 126.0

File: 220615_120s_GIXRD.xy
10.0116 371.0
10.1692 370.0
10.3268 382.0
10.4843 364.0
10.6419 341.0
10.7994 351.0
10.957 382.0
11.1146 355.0
11.2721 348.0
11.4297 341.0
11.5873 334.0
11.7448 344.0
11.9024 314.0
12.06 321.0
12.2175 354.0
12.3751 298.0
12.5326 362.0
12.6902 321.0
12.8478 338.0
13.0053 332.0
13.1629 314.0
13.3205 320.0
13.478 269.0
13.6356 244.0
13.7932 290.0
13.9507 288.0
14.1083 268.0
14.2658 301.0
14.4234 281.0
14.581 313.0
14.7385 341.0
14.8961 390.0
15.0537 446.0
15.2112 570.0
15.3688 601.0
15.5263 567.0
15.6839 549.0
15.8415 505.0
15.999 312.0
16.1566 271.0
16.3142 247.0
16.4717 251.0
16.6293 245.0
16.7869 299.0
16.9444 261.0
17.102 309.0
17.2595 243.0
17.4171 265.0
17.5747 273.0
17.7322 292.0
17.8898 284.0
18.0474 292.0
18.2049 279.0
18.3625 263.0
18.5201 283.0
18.6776 309.0
18.8352 249.0
18.9927 254.0
19.1503 267.0
19.3079 320.0
19.4654 276.0
19.623 331.0
19.7806 313.0
19.9381 307.0
20.0957 282.0
20.2533 335.0
20.4108 316.0
20.5684 324.0
20.7259 321.0
20.8835 376.0
21.0411 410.0
21.1986 575.0
21.3562 737.0
21.5138 850.0
21.6713 999.0
21.8289 982.0
21.9864 967.0
22.144 1050.0
22.3016 916.0
22.4591 785.0
22.6167 481.0
22.7743 376.0
22.9318 272.0
23.0894 301.0
23.247 257.0
23.4045 276.0
23.5621 241.0
23.7196 259.0
23.8772 259.0
24.0348 258.0
24.1923 279.0
24.3499 249.0
24.5075 239.0
24.665 244.0
24.8226 246.0
24.9802 234.0
25.1377 251.0
25.2953 230.0
25.4528 220.0
25.6104 238.0
25.768 219.0
25.9255 215.0
26.0831 219.0
26.2407 238.0
26.3982 209.0
26.5558 206.0
26.7133 191.0
26.8709 193.0
27.0285 193.0
27.186 192.0
27.3436 163.0
27.5012 201.0
27.6587 204.0
27.8163 191.0
27.9739 178.0
28.1314 205.0
28.289 199.0
28.4465 208.0
28.6041 168.0
28.7617 202.0
28.9192 202.0
29.0768 188.0
29.2344 211.0
29.3919 208.0
29.5495 201.0
29.7071 205.0
29.8646 219.0
30.0222 211.0
30.1797 314.0
30.3373 349.0
30.4949 407.0
30.6524 483.0
30.81 523.0
30.9676 485.0
31.1251 515.0
31.2827 579.0
31.4403 544.0
31.5978 537.0
31.7554 486.0
31.9129 450.0
32.0705 395.0
32.2281 239.0
32.3856 149.0
32.5432 149.0
32.7008 156.0
32.8583 124.0
33.0159 170.0
33.1734 133.0
33.331 136.0
33.4886 143.0
33.6461 143.0
33.8037 163.0
33.9613 149.0
34.1188 166.0
34.2764 190.0
34.434 192.0
34.5915 208.0
34.7491 186.0
34.9066 181.0
35.0642 182.0
35.2218 189.0
35.3793 207.0
35.5369 191.0
35.6945 196.0
35.852 162.0
36.0096 160.0
36.1672 129.0
36.3247 120.0
36.4823 105.0
36.6398 136.0
36.7974 129.0
36.955 128.0
37.1125 147.0
37.2701 187.0
37.4277 190.0
37.5852 205.0
37.7428 263.0
37.9004 230.0
38.0579 270.0
38.2155 256.0
38.373 303.0
38.5306 280.0
38.6882 288.0
38.8457 275.0
39.0033 264.0
39.1609 279.0
39.3184 248.0
39.476 221.0
39.6335 159.0
39.7911 120.0
39.9487 127.0
40.1062 110.0
40.2638 108.0
40.4214 106.0
40.5789 101.0
40.7365 121.0
40.8941 113.0
41.0516 96.0
41.2092 109.0
41.3667 101.0
41.5243 102.0
41.6819 105.0
41.8394 106.0
41.997 87.0
42.1546 106.0
42.3121 102.0
42.4697 94.0
42.6273 96.0
42.7848 96.0
42.9424 104.0
43.0999 116.0
43.2575 110.0
43.4151 131.0
43.5726 152.0
43.7302 167.0
43.8878 170.0
44.0453 147.0
44.2029 170.0
44.3604 174.0
44.518 223.0
44.6756 183.0
44.8331 200.0
44.9907 206.0
45.1483 159.0
45.3058 206.0
45.4634 197.0
45.621 188.0
45.7785 162.0
45.9361 145.0
46.0936 145.0
46.2512 115.0
46.4088 131.0
46.5663 109.0
46.7239 127.0
46.8815 101.0
47.039 131.0
47.1966 116.0
47.3542 113.0
47.5117 131.0
47.6693 108.0
47.8268 116.0
47.9844 134.0
48.142 120.0
48.2995 120.0
48.4571 102.0
48.6147 112.0
48.7722 130.0
48.9298 106.0
49.0874 113.0
49.2449 134.0
49.4025 121.0
49.56 124.0
49.7176 142.0
49.8752 147.0
50.0065 131.0

File: 220615_180s_GIXRD-u.xy
10.0116 370.0
10.1692 376.0
10.3268 375.0
10.4843 347.0
10.6419 356.0
10.7994 360.0
10.957 365.0
11.1146 368.0
11.2721 340.0
11.4297 355.0
11.5873 305.0
11.7448 337.0
11.9024 328.0
12.06 346.0
12.2175 360.0
12.3751 322.0
12.5326 343.0
12.6902 285.0
12.8478 308.0
13.0053 317.0
13.1629 303.0
13.3205 321.0
13.478 301.0
13.6356 302.0
13.7932 276.0
13.9507 259.0
14.1083 282.0
14.2658 265.0
14.4234 282.0
14.581 307.0
14.7385 332.0
14.8961 404.0
15.0537 510.0
15.2112 589.0
15.3688 621.0
15.5263 638.0
15.6839 608.0
15.8415 553.0
15.999 384.0
16.1566 306.0
16.3142 268.0
16.4717 261.0
16.6293 261.0
16.7869 287.0
16.9444 252.0
17.102 258.0
17.2595 288.0
17.4171 247.0
17.5747 289.0
17.7322 260.0
17.8898 245.0
18.0474 309.0
18.2049 299.0
18.3625 291.0
18.5201 273.0
18.6776 299.0
18.8352 288.0
18.9927 265.0
19.1503 296.0
19.3079 305.0
19.4654 294.0
19.623 343.0
19.7806 302.0
19.9381 287.0
20.0957 298.0
20.2533 317.0
20.4108 279.0
20.5684 319.0
20.7259 350.0
20.8835 327.0
21.0411 419.0
21.1986 616.0
21.3562 852.0
21.5138 884.0
21.6713 988.0
21.8289 937.0
21.9864 975.0
22.144 1060.0
22.3016 1030.0
22.4591 919.0
22.6167 677.0
22.7743 353.0
22.9318 307.0
23.0894 284.0
23.247 268.0
23.4045 275.0
23.5621 286.0
23.7196 267.0
23.8772 257.0
24.0348 228.0
24.1923 286.0
24.3499 236.0
24.5075 230.0
24.665 221.0
24.8226 246.0
24.9802 234.0
25.1377 256.0
25.2953 225.0
25.4528 220.0
25.6104 235.0
25.768 251.0
25.9255 232.0
26.0831 212.0
26.2407 266.0
26.3982 201.0
26.5558 214.0
26.7133 199.0
26.8709 214.0
27.0285 176.0
27.186 192.0
27.3436 201.0
27.5012 192.0
27.6587 166.0
27.8163 196.0
27.9739 190.0
28.1314 191.0
28.289 200.0
28.4465 182.0
28.6041 185.0
28.7617 198.0
28.9192 165.0
29.0768 178.0
29.2344 212.0
29.3919 182.0
29.5495 207.0
29.7071 204.0
29.8646 187.0
30.0222 223.0
30.1797 280.0
30.3373 344.0
30.4949 405.0
30.6524 441.0
30.81 452.0
30.9676 495.0
31.1251 475.0
31.2827 532.0
31.4403 501.0
31.5978 539.0
31.7554 529.0
31.9129 459.0
32.0705 427.0
32.2281 314.0
32.3856 187.0
32.5432 148.0
32.7008 154.0
32.8583 154.0
33.0159 136.0
33.1734 127.0
33.331 121.0
33.4886 143.0
33.6461 148.0
33.8037 139.0
33.9613 153.0
34.1188 191.0
34.2764 170.0
34.434 200.0
34.5915 204.0
34.7491 206.0
34.9066 172.0
35.0642 176.0
35.2218 191.0
35.3793 188.0
35.5369 199.0
35.6945 159.0
35.852 179.0
36.0096 186.0
36.1672 159.0
36.3247 128.0
36.4823 131.0
36.6398 133.0
36.7974 123.0
36.955 121.0
37.1125 120.0
37.2701 189.0
37.4277 186.0
37.5852 214.0
37.7428 247.0
37.9004 279.0
38.0579 262.0
38.2155 270.0
38.373 291.0
38.5306 261.0
38.6882 273.0
38.8457 293.0
39.0033 310.0
39.1609 251.0
39.3184 265.0
39.476 264.0
39.6335 194.0
39.7911 144.0
39.9487 118.0
40.1062 126.0
40.2638 113.0
40.4214 111.0
40.5789 106.0
40.7365 123.0
40.8941 94.0
41.0516 112.0
41.2092 96.0
41.3667 89.0
41.5243 107.0
41.6819 90.0
41.8394 114.0
41.997 94.0
42.1546 106.0
42.3121 92.0
42.4697 97.0
42.6273 102.0
42.7848 93.0
42.9424 124.0
43.0999 124.0
43.2575 122.0
43.4151 149.0
43.5726 142.0
43.7302 134.0
43.8878 167.0
44.0453 166.0
44.2029 169.0
44.3604 168.0
44.518 183.0
44.6756 217.0
44.8331 209.0
44.9907 178.0
45.1483 199.0
45.3058 173.0
45.4634 196.0
45.621 171.0
45.7785 160.0
45.9361 147.0
46.0936 150.0
46.2512 142.0
46.4088 124.0
46.5663 129.0
46.7239 113.0
46.8815 120.0
47.039 121.0
47.1966 115.0
47.3542 122.0
47.5117 109.0
47.6693 95.0
47.8268 111.0
47.9844 122.0
48.142 114.0
48.2995 97.0
48.4571 95.0
48.6147 123.0
48.7722 120.0
48.9298 100.0
49.0874 120.0
49.2449 109.0
49.4025 127.0
49.56 131.0
49.7176 134.0
49.8752 139.0
50.0065 159.0

File: 220615_180s_GIXRD.xy
5.00308 43.0
5.25912 45.0
5.51516 41.0
5.7712 36.0
6.02724 41.0
6.28329 42.0
6.53933 43.0
6.79537 40.0
7.05141 26.0
7.30745 36.0
7.56349 33.0
7.81953 31.0
8.07557 31.0
8.33161 25.0
8.58765 28.0
8.84369 28.0
9.09973 28.0
9.35577 30.0
9.61181 22.0
9.86785 31.0
10.1239 21.0
10.3799 28.0
10.636 22.0
10.892 19.0
11.1481 22.0
11.4041 29.0
11.6601 32.0
11.9162 19.0
12.1722 21.0
12.4283 25.0
12.6843 28.0
12.9403 24.0
13.1964 24.0
13.4524 21.0
13.7085 21.0
13.9645 17.0
14.2205 22.0
14.4766 23.0
14.7326 22.0
14.9887 39.0
15.2447 35.0
15.5007 42.0
15.7568 43.0
16.0128 25.0
16.2689 16.0
16.5249 20.0
16.7809 9.0
17.037 17.0
17.293 19.0
17.5491 14.0
17.8051 22.0
18.0611 18.0
18.3172 16.0
18.5732 18.0
18.8293 22.0
19.0853 18.0
19.3414 9.0
19.5974 13.0
19.8534 20.0
20.1095 20.0
20.3655 13.0
20.6216 14.0
20.8776 26.0
21.1336 41.0
21.3897 72.0
21.6457 65.0
21.9018 65.0
22.1578 67.0
22.4138 89.0
22.6699 52.0
22.9259 14.0
23.182 15.0
23.438 22.0
23.694 22.0
23.9501 18.0
24.2061 14.0
24.4622 18.0
24.7182 15.0
24.9742 12.0
25.2303 18.0
25.4863 12.0
25.7424 15.0
25.9984 15.0
26.2544 15.0
26.5105 15.0
26.7665 10.0
27.0226 18.0
27.2786 10.0
27.5346 14.0
27.7907 11.0
28.0467 17.0
28.3028 16.0
28.5588 17.0
28.8149 12.0
29.0709 12.0
29.3269 14.0
29.583 18.0
29.839 10.0
30.0951 9.0
30.3511 16.0
30.6071 31.0
30.8632 18.0
31.1192 37.0
31.3753 37.0
31.6313 39.0
31.8873 25.0
32.1434 20.0
32.3994 20.0
32.6555 14.0
32.9115 9.0
33.1675 9.0
33.4236 5.0
33.6796 8.0
33.9357 17.0
34.1917 13.0
34.4477 6.0
34.7038 13.0
34.9598 8.0
35.2159 15.0
35.4719 11.0
35.7279 12.0
35.984 8.0
36.24 6.0
36.4961 7.0
36.7521 6.0
37.0081 8.0
37.2642 10.0
37.5202 14.0
37.7763 22.0
38.0323 12.0
38.2883 15.0
38.5444 18.0
38.8004 15.0
39.0565 20.0
39.3125 17.0
39.5686 15.0
39.8246 11.0
40.0806 7.0
40.3367 6.0
40.5927 12.0
40.8488 4.0
41.1048 4.0
41.3608 4.0
41.6169 8.0
41.8729 9.0
42.129 12.0
42.385 10.0
42.641 11.0
42.8971 9.0
43.1531 10.0
43.4092 5.0
43.6652 10.0
43.9212 9.0
44.1773 13.0
44.4333 20.0
44.6894 12.0
44.9454 15.0
45.2014 14.0
45.4575 15.0
45.7135 17.0
45.9696 9.0
46.2256 6.0
46.4816 7.0
46.7377 8.0
46.9937 4.0
47.2498 10.0
47.5058 6.0
47.7618 7.0
48.0179 15.0
48.2739 7.0
48.53 10.0
48.786 7.0
49.0421 6.0
49.2981 11.0
49.5541 12.0
49.8102 8.0
50.0662 12.0
50.3223 9.0
50.5783 12.0
50.8343 8.0
51.0904 9.0
51.3464 13.0
51.6025 9.0
51.8585 9.0
52.1145 9.0
52.3706 7.0
52.6266 9.0
52.8827 3.0
53.1387 8.0
53.3947 9.0
53.6508 4.0
53.9068 11.0
54.1629 8.0
54.4189 6.0
54.6749 12.0
54.931 8.0
55.187 8.0
55.4431 5.0
55.6991 11.0
55.9551 8.0
56.2112 4.0
56.4672 7.0
56.7233 10.0
56.9793 11.0
57.2353 3.0
57.4914 3.0
57.7474 7.0
58.0035 10.0
58.2595 4.0
58.5155 8.0
58.7716 8.0
59.0276 5.0
59.2837 11.0
59.5397 6.0
59.7958 3.0
60.0518 6.0
60.3078 14.0
60.5639 5.0
60.8199 6.0
61.076 6.0
61.332 6.0
61.588 3.0
61.8441 6.0
62.1001 7.0
62.3562 8.0
62.6122 6.0
62.8682 5.0
63.1243 4.0
63.3803 7.0
63.6364 6.0
63.8924 10.0
64.1484 6.0
64.4045 5.0
64.6605 5.0
64.9166 2.0
65.1726 7.0
65.4286 6.0
65.6847 3.0
65.9407 7.0
66.1968 4.0
66.4528 5.0
66.7088 9.0
66.9649 2.0
67.2209 6.0
67.477 4.0
67.733 7.0
67.989 3.0
68.2451 5.0
68.5011 0.0
68.7572 9.0
69.0132 4.0
69.2693 6.0
69.5253 8.0
69.7813 0.0
70.0374 9.0
70.2934 5.0
70.5495 2.0
70.8055 3.0
71.0615 3.0
71.3176 5.0
71.5736 3.0
71.8297 3.0
72.0857 3.0
72.3417 5.0
72.5978 3.0
72.8538 6.0
73.1099 4.0
73.3659 8.0
73.6219 6.0
73.878 5.0
74.134 7.0
74.3901 8.0
74.6461 4.0
74.9021 8.0
75.1582 5.0
75.4142 6.0
75.6703 3.0
75.9263 6.0
76.1823 6.0
76.4384 6.0
76.6944 3.0
76.9505 5.0
77.2065 5.0
77.4625 6.0
77.7186 3.0
77.9746 8.0
78.2307 6.0
78.4867 4.0
78.7428 3.0
78.9988 7.0
79.2548 5.0
79.5109 6.0
79.7669 7.0
79.9967 1.0