Folder: XRD-data/Br-Cl_phases/XRD

File: 000s.dat
10.0116 367
10.1692 416
10.3268 370
10.4843 361
10.6419 375
10.7994 361
10.957 360
11.1146 354
11.2721 333
11.4297 360
11.5873 347
11.7448 356
11.9024 355
12.06 315
12.2175 328
12.3751 338
12.5326 340
12.6902 344
12.8478 339
13.0053 318
13.1629 317
13.3205 301
13.478 344
13.6356 308
13.7932 286
13.9507 282
14.1083 266
14.2658 296
14.4234 299
14.581 421
14.7385 460
14.8961 584
15.0537 644
15.2112 619
15.3688 628
15.5263 530
15.6839 367
15.8415 278
15.999 283
16.1566 239
16.3142 263
16.4717 275
16.6293 285
16.7869 252
16.9444 276
17.102 231
17.2595 292
17.4171 300
17.5747 264
17.7322 260
17.8898 271
18.0474 264
18.2049 249
18.3625 282
18.5201 249
18.6776 308
18.8352 267
18.9927 279
19.1503 291
19.3079 309
19.4654 312
19.623 281
19.7806 306
19.9381 302
20.0957 323
20.2533 292
20.4108 308
20.5684 332
20.7259 410
20.8835 539
21.0411 649
21.1986 750
21.3562 731
21.5138 766
21.6713 799
21.8289 753
21.9864 678
22.144 612
22.3016 384
22.4591 355
22.6167 292
22.7743 245
22.9318 297
23.0894 275
23.247 292
23.4045 257
23.5621 280
23.7196 272
23.8772 331
24.0348 296
24.1923 281
24.3499 272
24.5075 292
24.665 289
24.8226 277
24.9802 270
25.1377 267
25.2953 267
25.4528 247
25.6104 272
25.768 249
25.9255 258
26.0831 254
26.2407 217
26.3982 231
26.5558 204
26.7133 228
26.8709 231
27.0285 195
27.186 206
27.3436 182
27.5012 189
27.6587 199
27.8163 198
27.9739 187
28.1314 206
28.289 212
28.4465 229
28.6041 203
28.7617 207
28.9192 200
29.0768 195
29.2344 222
29.3919 248
29.5495 314
29.7071 377
29.8646 402
30.0222 467
30.1797 577
30.3373 580
30.4949 574
30.6524 592
30.81 599
30.9676 612
31.1251 562
31.2827 505
31.4403 539
31.5978 321
31.7554 201
31.9129 185
32.0705 160
32.2281 153
32.3856 142
32.5432 140
32.7008 146
32.8583 147
33.0159 141
33.1734 175
33.331 188
33.4886 200
33.6461 212
33.8037 210
33.9613 221
34.1188 275
34.2764 249
34.434 245
34.5915 230
34.7491 248
34.9066 223
35.0642 214
35.2218 204
35.3793 176
35.5369 170
35.6945 140
35.852 120
36.0096 118
36.1672 118
36.3247 179
36.4823 171
36.6398 192
36.7974 191
36.955 251
37.1125 249
37.2701 251
37.4277 270
37.5852 287
37.7428 274
37.9004 286
38.0579 303
38.2155 310
38.373 284
38.5306 256
38.6882 254
38.8457 183
39.0033 164
39.1609 120
39.3184 115
39.476 118
39.6335 106
39.7911 110
39.9487 115
40.1062 126
40.2638 101
40.4214 86
40.5789 87
40.7365 88
40.8941 84
41.0516 81
41.2092 91
41.3667 105
41.5243 107
41.6819 105
41.8394 122
41.997 104
42.1546 106
42.3121 123
42.4697 163
42.6273 120
42.7848 155
42.9424 176
43.0999 182
43.2575 163
43.4151 195
43.5726 235
43.7302 210
43.8878 217
44.0453 226
44.2029 215
44.3604 204
44.518 226
44.6756 234
44.8331 192
44.9907 167
45.1483 184
45.3058 169
45.4634 139
45.621 130
45.7785 120
45.9361 137
46.0936 165
46.2512 165
46.4088 145
46.5663 134
46.7239 121
46.8815 125
47.039 135
47.1966 145
47.3542 125
47.5117 139
47.6693 128
47.8268 132
47.9844 134
48.142 122
48.2995 127
48.4571 114
48.6147 131
48.7722 133
48.9298 132
49.0874 125
49.2449 155
49.4025 150
49.56 128
49.7176 139
49.8752 144
50.0065 122

File: 008s.dat
10.0116 366
10.1692 359
10.3268 346
10.4843 331
10.6419 386
10.7994 368
10.957 380
11.1146 367
11.2721 377
11.4297 377
11.5873 338
11.7448 337
11.9024 358
12.06 329
12.2175 362
12.3751 385
12.5326 352
12.6902 371
12.8478 355
13.0053 343
13.1629 306
13.3205 271
13.478 308
13.6356 307
13.7932 311
13.9507 282
14.1083 318
14.2658 269
14.4234 343
14.581 318
14.7385 460
14.8961 676
15.0537 748
15.2112 843
15.3688 875
15.5263 831
15.6839 734
15.8415 535
15.999 302
16.1566 276
16.3142 307
16.4717 291
16.6293 275
16.7869 279
16.9444 257
17.102 266
17.2595 252
17.4171 267
17.5747 245
17.7322 289
17.8898 278
18.0474 253
18.2049 276
18.3625 273
18.5201 283
18.6776 322
18.8352 285
18.9927 272
19.1503 326
19.3079 334
19.4654 288
19.623 304
19.7806 323
19.9381 293
20.0957 295
20.2533 310
20.4108 300
20.5684 336
20.7259 351
20.8835 362
21.0411 455
21.1986 563
21.3562 597
21.5138 668
21.6713 598
21.8289 620
21.9864 619
22.144 576
22.3016 512
22.4591 420
22.6167 313
22.7743 277
22.9318 267
23.0894 242
23.247 290
23.4045 282
23.5621 242
23.7196 303
23.8772 306
24.0348 300
24.1923 293
24.3499 286
24.5075 285
24.665 259
24.8226 252
24.9802 254
25.1377 247
25.2953 249
25.4528 259
25.6104 236
25.768 227
25.9255 216
26.0831 225
26.2407 221
26.3982 213
26.5558 186
26.7133 214
26.8709 204
27.0285 194
27.186 200
27.3436 200
27.5012 207
27.6587 204
27.8163 207
27.9739 226
28.1314 218
28.289 207
28.4465 207
28.6041 206
28.7617 184
28.9192 178
29.0768 221
29.2344 209
29.3919 241
29.5495 214
29.7071 279
29.8646 392
30.0222 421
30.1797 519
30.3373 675
30.4949 757
30.6524 777
30.81 807
30.9676 835
31.1251 837
31.2827 808
31.4403 819
31.5978 779
31.7554 623
31.9129 561
32.0705 335
32.2281 189
32.3856 169
32.5432 179
32.7008 151
32.8583 163
33.0159 127
33.1734 166
33.331 152
33.4886 186
33.6461 211
33.8037 193
33.9613 196
34.1188 197
34.2764 224
34.434 228
34.5915 199
34.7491 242
34.9066 240
35.0642 211
35.2218 199
35.3793 201
35.5369 173
35.6945 186
35.852 157
36.0096 140
36.1672 133
36.3247 121
36.4823 163
36.6398 127
36.7974 148
36.955 155
37.1125 227
37.2701 220
37.4277 217
37.5852 244
37.7428 228
37.9004 265
38.0579 253
38.2155 273
38.373 277
38.5306 255
38.6882 260
38.8457 235
39.0033 213
39.1609 221
39.3184 187
39.476 143
39.6335 122
39.7911 113
39.9487 122
40.1062 108
40.2638 83
40.4214 109
40.5789 98
40.7365 123
40.8941 105
41.0516 122
41.2092 112
41.3667 110
41.5243 113
41.6819 87
41.8394 99
41.997 86
42.1546 100
42.3121 114
42.4697 106
42.6273 115
42.7848 126
42.9424 139
43.0999 121
43.2575 144
43.4151 142
43.5726 165
43.7302 164
43.8878 167
44.0453 163
44.2029 180
44.3604 155
44.518 174
44.6756 188
44.8331 164
44.9907 190
45.1483 175
45.3058 171
45.4634 179
45.621 139
45.7785 120
45.9361 129
46.0936 132
46.2512 112
46.4088 131
46.5663 150
46.7239 126
46.8815 121
47.039 143
47.1966 107
47.3542 114
47.5117 123
47.6693 122
47.8268 123
47.9844 112
48.142 130
48.2995 147
48.4571 125
48.6147 117
48.7722 115
48.9298 134
49.0874 139
49.2449 131
49.4025 131
49.56 147
49.7176 129
49.8752 135
50.0065 152

File: 013s.dat
10.0116 340
10.1692 371
10.3268 404
10.4843 350
10.6419 363
10.7994 368
10.957 346
11.1146 350
11.2721 367
11.4297 379
11.5873 354
11.7448 324
11.9024 321
12.06 329
12.2175 326
12.3751 350
12.5326 326
12.6902 340
12.8478 323
13.0053 329
13.1629 297
13.3205 311
13.478 305
13.6356 319
13.7932 283
13.9507 282
14.1083 287
14.2658 300
14.4234 296
14.581 283
14.7385 296
14.8961 304
15.0537 400
15.2112 515
15.3688 605
15.5263 629
15.6839 685
15.8415 596
15.999 411
16.1566 299
16.3142 281
16.4717 267
16.6293 276
16.7869 270
16.9444 236
17.102 237
17.2595 274
17.4171 294
17.5747 276
17.7322 255
17.8898 277
18.0474 296
18.2049 274
18.3625 273
18.5201 280
18.6776 288
18.8352 316
18.9927 287
19.1503 265
19.3079 289
19.4654 301
19.623 288
19.7806 309
19.9381 274
20.0957 293
20.2533 307
20.4108 312
20.5684 282
20.7259 298
20.8835 298
21.0411 345
21.1986 378
21.3562 572
21.5138 905
21.6713 1039
21.8289 1106
21.9864 1094
22.144 1081
22.3016 1088
22.4591 1000
22.6167 829
22.7743 459
22.9318 329
23.0894 305
23.247 276
23.4045 273
23.5621 235
23.7196 232
23.8772 272
24.0348 260
24.1923 235
24.3499 247
24.5075 230
24.665 231
24.8226 245
24.9802 233
25.1377 221
25.2953 250
25.4528 218
25.6104 239
25.768 246
25.9255 213
26.0831 213
26.2407 207
26.3982 206
26.5558 176
26.7133 190
26.8709 181
27.0285 173
27.186 200
27.3436 193
27.5012 175
27.6587 180
27.8163 175
27.9739 192
28.1314 193
28.289 166
28.4465 162
28.6041 170
28.7617 193
28.9192 177
29.0768 186
29.2344 181
29.3919 166
29.5495 195
29.7071 167
29.8646 170
30.0222 173
30.1797 215
30.3373 230
30.4949 235
30.6524 373
30.81 436
30.9676 477
31.1251 500
31.2827 544
31.4403 580
31.5978 557
31.7554 556
31.9129 555
32.0705 502
32.2281 431
32.3856 277
32.5432 165
32.7008 163
32.8583 132
33.0159 165
33.1734 141
33.331 158
33.4886 130
33.6461 141
33.8037 129
33.9613 138
34.1188 126
34.2764 156
34.434 159
34.5915 162
34.7491 189
34.9066 203
35.0642 199
35.2218 184
35.3793 201
35.5369 210
35.6945 162
35.852 185
36.0096 181
36.1672 151
36.3247 135
36.4823 119
36.6398 124
36.7974 127
36.955 111
37.1125 118
37.2701 118
37.4277 139
37.5852 167
37.7428 193
37.9004 229
38.0579 256
38.2155 290
38.373 295
38.5306 287
38.6882 292
38.8457 330
39.0033 330
39.1609 292
39.3184 259
39.476 280
39.6335 240
39.7911 172
39.9487 134
40.1062 117
40.2638 106
40.4214 103
40.5789 100
40.7365 98
40.8941 110
41.0516 98
41.2092 114
41.3667 101
41.5243 97
41.6819 103
41.8394 93
41.997 112
42.1546 80
42.3121 127
42.4697 100
42.6273 88
42.7848 85
42.9424 95
43.0999 100
43.2575 104
43.4151 115
43.5726 95
43.7302 121
43.8878 173
44.0453 154
44.2029 165
44.3604 166
44.518 184
44.6756 209
44.8331 201
44.9907 207
45.1483 205
45.3058 161
45.4634 199
45.621 189
45.7785 167
45.9361 173
46.0936 148
46.2512 142
46.4088 122
46.5663 116
46.7239 114
46.8815 107
47.039 110
47.1966 107
47.3542 132
47.5117 121
47.6693 94
47.8268 145
47.9844 112
48.142 91
48.2995 122
48.4571 110
48.6147 98
48.7722 130
48.9298 116
49.0874 118
49.2449 111
49.4025 106
49.56 132
49.7176 144
49.8752 131
50.0065 142

File: 025s.dat
10.0116 382
10.1692 373
10.3268 378
10.4843 355
10.6419 379
10.7994 349
10.957 354
11.1146 345
11.2721 364
11.4297 342
11.5873 368
11.7448 345
11.9024 328
12.06 376
12.2175 342
12.3751 344
12.5326 340
12.6902 315
12.8478 352
13.0053 336
13.1629 319
13.3205 302
13.478 290
13.6356 290
13.7932 309
13.9507 282
14.1083 306
14.2658 323
14.4234 279
14.581 315
14.7385 410
14.8961 478
15.0537 511
15.2112 553
15.3688 547
15.5263 516
15.6839 487
15.8415 339
15.999 275
16.1566 281
16.3142 233
16.4717 261
16.6293 279
16.7869 277
16.9444 271
17.102 285
17.2595 264
17.4171 280
17.5747 255
17.7322 258
17.8898 259
18.0474 241
18.2049 254
18.3625 253
18.5201 265
18.6776 299
18.8352 294
18.9927 284
19.1503 281
19.3079 243
19.4654 318
19.623 305
19.7806 279
19.9381 316
20.0957 323
20.2533 287
20.4108 309
20.5684 301
20.7259 330
20.8835 369
21.0411 427
21.1986 638
21.3562 766
21.5138 733
21.6713 769
21.8289 754
21.9864 752
22.144 734
22.3016 618
22.4591 441
22.6167 321
22.7743 319
22.9318 309
23.0894 280
23.247 256
23.4045 273
23.5621 266
23.7196 277
23.8772 255
24.0348 282
24.1923 287
24.3499 244
24.5075 269
24.665 256
24.8226 287
24.9802 287
25.1377 253
25.2953 229
25.4528 243
25.6104 213
25.768 247
25.9255 223
26.0831 229
26.2407 225
26.3982 231
26.5558 237
26.7133 217
26.8709 215
27.0285 193
27.186 205
27.3436 180
27.5012 185
27.6587 190
27.8163 220
27.9739 210
28.1314 208
28.289 172
28.4465 206
28.6041 189
28.7617 192
28.9192 198
29.0768 204
29.2344 192
29.3919 208
29.5495 235
29.7071 276
29.8646 305
30.0222 359
30.1797 476
30.3373 506
30.4949 547
30.6524 563
30.81 588
30.9676 580
31.1251 553
31.2827 555
31.4403 570
31.5978 528
31.7554 455
31.9129 360
32.0705 229
32.2281 170
32.3856 157
32.5432 142
32.7008 132
32.8583 139
33.0159 127
33.1734 167
33.331 142
33.4886 144
33.6461 166
33.8037 165
33.9613 198
34.1188 198
34.2764 210
34.434 226
34.5915 221
34.7491 212
34.9066 194
35.0642 208
35.2218 218
35.3793 198
35.5369 165
35.6945 165
35.852 131
36.0096 148
36.1672 122
36.3247 127
36.4823 114
36.6398 133
36.7974 123
36.955 183
37.1125 215
37.2701 211
37.4277 273
37.5852 281
37.7428 267
37.9004 271
38.0579 330
38.2155 298
38.373 276
38.5306 328
38.6882 272
38.8457 251
39.0033 221
39.1609 225
39.3184 176
39.476 137
39.6335 122
39.7911 115
39.9487 123
40.1062 110
40.2638 105
40.4214 108
40.5789 79
40.7365 98
40.8941 122
41.0516 88
41.2092 110
41.3667 97
41.5243 108
41.6819 94
41.8394 96
41.997 110
42.1546 119
42.3121 112
42.4697 94
42.6273 112
42.7848 125
42.9424 125
43.0999 151
43.2575 175
43.4151 167
43.5726 187
43.7302 176
43.8878 207
44.0453 209
44.2029 205
44.3604 206
44.518 184
44.6756 223
44.8331 202
44.9907 195
45.1483 201
45.3058 197
45.4634 184
45.621 157
45.7785 141
45.9361 112
46.0936 127
46.2512 121
46.4088 125
46.5663 133
46.7239 139
46.8815 129
47.039 117
47.1966 120
47.3542 116
47.5117 107
47.6693 139
47.8268 120
47.9844 128
48.142 110
48.2995 115
48.4571 128
48.6147 114
48.7722 117
48.9298 129
49.0874 117
49.2449 128
49.4025 141
49.56 136
49.7176 118
49.8752 126
50.0065 126

File: 120s.dat
10.0116 371
10.1692 370
10.3268 382
10.4843 364
10.6419 341
10.7994 351
10.957 382
11.1146 355
11.2721 348
11.4297 341
11.5873 334
11.7448 344
11.9024 314
12.06 321
12.2175 354
12.3751 298
12.5326 362
12.6902 321
12.8478 338
13.0053 332
13.1629 314
13.3205 320
13.478 269
13.6356 244
13.7932 290
13.9507 288
14.1083 268
14.2658 301
14.4234 281
14.581 313
14.7385 341
14.8961 390
15.0537 446
15.2112 570
15.3688 601
15.5263 567
15.6839 549
15.8415 505
15.999 312
16.1566 271
16.3142 247
16.4717 251
16.6293 245
16.7869 299
16.9444 261
17.102 309
17.2595 243
17.4171 265
17.5747 273
17.7322 292
17.8898 284
18.0474 292
18.2049 279
18.3625 263
18.5201 283
18.6776 309
18.8352 249
18.9927 254
19.1503 267
19.3079 320
19.4654 276
19.623 331
19.7806 313
19.9381 307
20.0957 282
20.2533 335
20.4108 316
20.5684 324
20.7259 321
20.8835 376
21.0411 410
21.1986 575
21.3562 737
21.5138 850
21.6713 999
21.8289 982
21.9864 967
22.144 1050
22.3016 916
22.4591 785
22.6167 481
22.7743 376
22.9318 272
23.0894 301
23.247 257
23.4045 276
23.5621 241
23.7196 259
23.8772 259
24.0348 258
24.1923 279
24.3499 249
24.5075 239
24.665 244
24.8226 246
24.9802 234
25.1377 251
25.2953 230
25.4528 220
25.6104 238
25.768 219
25.9255 215
26.0831 219
26.2407 238
26.3982 209
26.5558 206
26.7133 191
26.8709 193
27.0285 193
27.186 192
27.3436 163
27.5012 201
27.6587 204
27.8163 191
27.9739 178
28.1314 205
28.289 199
28.4465 208
28.6041 168
28.7617 202
28.9192 202
29.0768 188
29.2344 211
29.3919 208
29.5495 201
29.7071 205
29.8646 219
30.0222 211
30.1797 314
30.3373 349
30.4949 407
30.6524 483
30.81 523
30.9676 485
31.1251 515
31.2827 579
31.4403 544
31.5978 537
31.7554 486
31.9129 450
32.0705 395
32.2281 239
32.3856 149
32.5432 149
32.7008 156
32.8583 124
33.0159 170
33.1734 133
33.331 136
33.4886 143
33.6461 143
33.8037 163
33.9613 149
34.1188 166
34.2764 190
34.434 192
34.5915 208
34.7491 186
34.9066 181
35.0642 182
35.2218 189
35.3793 207
35.5369 191
35.6945 196
35.852 162
36.0096 160
36.1672 129
36.3247 120
36.4823 105
36.6398 136
36.7974 129
36.955 128
37.1125 147
37.2701 187
37.4277 190
37.5852 205
37.7428 263
37.9004 230
38.0579 270
38.2155 256
38.373 303
38.5306 280
38.6882 288
38.8457 275
39.0033 264
39.1609 279
39.3184 248
39.476 221
39.6335 159
39.7911 120
39.9487 127
40.1062 110
40.2638 108
40.4214 106
40.5789 101
40.7365 121
40.8941 113
41.0516 96
41.2092 109
41.3667 101
41.5243 102
41.6819 105
41.8394 106
41.997 87
42.1546 106
42.3121 102
42.4697 94
42.6273 96
42.7848 96
42.9424 104
43.0999 116
43.2575 110
43.4151 131
43.5726 152
43.7302 167
43.8878 170
44.0453 147
44.2029 170
44.3604 174
44.518 223
44.6756 183
44.8331 200
44.9907 206
45.1483 159
45.3058 206
45.4634 197
45.621 188
45.7785 162
45.9361 145
46.0936 145
46.2512 115
46.4088 131
46.5663 109
46.7239 127
46.8815 101
47.039 131
47.1966 116
47.3542 113
47.5117 131
47.6693 108
47.8268 116
47.9844 134
48.142 120
48.2995 120
48.4571 102
48.6147 112
48.7722 130
48.9298 106
49.0874 113
49.2449 134
49.4025 121
49.56 124
49.7176 142
49.8752 147
50.0065 131

File: 180s.dat
10.0116 370
10.1692 376
10.3268 375
10.4843 347
10.6419 356
10.7994 360
10.957 365
11.1146 368
11.2721 340
11.4297 355
11.5873 305
11.7448 337
11.9024 328
12.06 346
12.2175 360
12.3751 322
12.5326 343
12.6902 285
12.8478 308
13.0053 317
13.1629 303
13.3205 321
13.478 301
13.6356 302
13.7932 276
13.9507 259
14.1083 282
14.2658 265
14.4234 282
14.581 307
14.7385 332
14.8961 404
15.0537 510
15.2112 589
15.3688 621
15.5263 638
15.6839 608
15.8415 553
15.999 384
16.1566 306
16.3142 268
16.4717 261
16.6293 261
16.7869 287
16.9444 252
17.102 258
17.2595 288
17.4171 247
17.5747 289
17.7322 260
17.8898 245
18.0474 309
18.2049 299
18.3625 291
18.5201 273
18.6776 299
18.8352 288
18.9927 265
19.1503 296
19.3079 305
19.4654 294
19.623 343
19.7806 302
19.9381 287
20.0957 298
20.2533 317
20.4108 279
20.5684 319
20.7259 350
20.8835 327
21.0411 419
21.1986 616
21.3562 852
21.5138 884
21.6713 988
21.8289 937
21.9864 975
22.144 1060
22.3016 1030
22.4591 919
22.6167 677
22.7743 353
22.9318 307
23.0894 284
23.247 268
23.4045 275
23.5621 286
23.7196 267
23.8772 257
24.0348 228
24.1923 286
24.3499 236
24.5075 230
24.665 221
24.8226 246
24.9802 234
25.1377 256
25.2953 225
25.4528 220
25.6104 235
25.768 251
25.9255 232
26.0831 212
26.2407 266
26.3982 201
26.5558 214
26.7133 199
26.8709 214
27.0285 176
27.186 192
27.3436 201
27.5012 192
27.6587 166
27.8163 196
27.9739 190
28.1314 191
28.289 200
28.4465 182
28.6041 185
28.7617 198
28.9192 165
29.0768 178
29.2344 212
29.3919 182
29.5495 207
29.7071 204
29.8646 187
30.0222 223
30.1797 280
30.3373 344
30.4949 405
30.6524 441
30.81 452
30.9676 495
31.1251 475
31.2827 532
31.4403 501
31.5978 539
31.7554 529
31.9129 459
32.0705 427
32.2281 314
32.3856 187
32.5432 148
32.7008 154
32.8583 154
33.0159 136
33.1734 127
33.331 121
33.4886 143
33.6461 148
33.8037 139
33.9613 153
34.1188 191
34.2764 170
34.434 200
34.5915 204
34.7491 206
34.9066 172
35.0642 176
35.2218 191
35.3793 188
35.5369 199
35.6945 159
35.852 179
36.0096 186
36.1672 159
36.3247 128
36.4823 131
36.6398 133
36.7974 123
36.955 121
37.1125 120
37.2701 189
37.4277 186
37.5852 214
37.7428 247
37.9004 279
38.0579 262
38.2155 270
38.373 291
38.5306 261
38.6882 273
38.8457 293
39.0033 310
39.1609 251
39.3184 265
39.476 264
39.6335 194
39.7911 144
39.9487 118
40.1062 126
40.2638 113
40.4214 111
40.5789 106
40.7365 123
40.8941 94
41.0516 112
41.2092 96
41.3667 89
41.5243 107
41.6819 90
41.8394 114
41.997 94
42.1546 106
42.3121 92
42.4697 97
42.6273 102
42.7848 93
42.9424 124
43.0999 124
43.2575 122
43.4151 149
43.5726 142
43.7302 134
43.8878 167
44.0453 166
44.2029 169
44.3604 168
44.518 183
44.6756 217
44.8331 209
44.9907 178
45.1483 199
45.3058 173
45.4634 196
45.621 171
45.7785 160
45.9361 147
46.0936 150
46.2512 142
46.4088 124
46.5663 129
46.7239 113
46.8815 120
47.039 121
47.1966 115
47.3542 122
47.5117 109
47.6693 95
47.8268 111
47.9844 122
48.142 114
48.2995 97
48.4571 95
48.6147 123
48.7722 120
48.9298 100
49.0874 120
49.2449 109
49.4025 127
49.56 131
49.7176 134
49.8752 139
50.0065 159

File: 300s.dat
10.0116 367
10.1692 382
10.3268 359
10.4843 397
10.6419 394
10.7994 387
10.957 317
11.1146 317
11.2721 349
11.4297 335
11.5873 347
11.7448 323
11.9024 339
12.06 329
12.2175 354
12.3751 370
12.5326 325
12.6902 346
12.8478 327
13.0053 359
13.1629 318
13.3205 304
13.478 335
13.6356 295
13.7932 316
13.9507 305
14.1083 263
14.2658 294
14.4234 296
14.581 307
14.7385 359
14.8961 399
15.0537 521
15.2112 613
15.3688 712
15.5263 716
15.6839 697
15.8415 697
15.999 525
16.1566 301
16.3142 299
16.4717 279
16.6293 238
16.7869 267
16.9444 270
17.102 291
17.2595 275
17.4171 249
17.5747 262
17.7322 262
17.8898 232
18.0474 299
18.2049 289
18.3625 263
18.5201 298
18.6776 278
18.8352 251
18.9927 282
19.1503 280
19.3079 307
19.4654 272
19.623 287
19.7806 290
19.9381 299
20.0957 319
20.2533 310
20.4108 306
20.5684 301
20.7259 322
20.8835 314
21.0411 349
21.1986 400
21.3562 449
21.5138 547
21.6713 603
21.8289 624
21.9864 631
22.144 667
22.3016 592
22.4591 550
22.6167 497
22.7743 372
22.9318 291
23.0894 247
23.247 283
23.4045 275
23.5621 275
23.7196 271
23.8772 231
24.0348 223
24.1923 251
24.3499 231
24.5075 230
24.665 250
24.8226 244
24.9802 255
25.1377 264
25.2953 254
25.4528 223
25.6104 215
25.768 185
25.9255 203
26.0831 195
26.2407 210
26.3982 186
26.5558 191
26.7133 221
26.8709 181
27.0285 205
27.186 209
27.3436 188
27.5012 167
27.6587 159
27.8163 198
27.9739 185
28.1314 165
28.289 199
28.4465 160
28.6041 192
28.7617 168
28.9192 195
29.0768 195
29.2344 205
29.3919 192
29.5495 202
29.7071 208
29.8646 212
30.0222 231
30.1797 308
30.3373 359
30.4949 446
30.6524 523
30.81 637
30.9676 686
31.1251 760
31.2827 837
31.4403 763
31.5978 809
31.7554 791
31.9129 736
32.0705 655
32.2281 585
32.3856 354
32.5432 231
32.7008 169
32.8583 163
33.0159 160
33.1734 169
33.331 132
33.4886 146
33.6461 145
33.8037 169
33.9613 158
34.1188 175
34.2764 173
34.434 201
34.5915 183
34.7491 195
34.9066 183
35.0642 179
35.2218 195
35.3793 212
35.5369 212
35.6945 189
35.852 167
36.0096 175
36.1672 159
36.3247 122
36.4823 148
36.6398 141
36.7974 108
36.955 121
37.1125 133
37.2701 140
37.4277 166
37.5852 178
37.7428 188
37.9004 205
38.0579 221
38.2155 279
38.373 239
38.5306 264
38.6882 246
38.8457 246
39.0033 250
39.1609 268
39.3184 279
39.476 230
39.6335 200
39.7911 192
39.9487 136
40.1062 119
40.2638 101
40.4214 123
40.5789 120
40.7365 104
40.8941 112
41.0516 89
41.2092 112
41.3667 89
41.5243 110
41.6819 102
41.8394 100
41.997 77
42.1546 76
42.3121 113
42.4697 99
42.6273 91
42.7848 87
42.9424 95
43.0999 99
43.2575 92
43.4151 118
43.5726 125
43.7302 148
43.8878 129
44.0453 139
44.2029 152
44.3604 156
44.518 125
44.6756 175
44.8331 183
44.9907 179
45.1483 165
45.3058 186
45.4634 173
45.621 186
45.7785 188
45.9361 149
46.0936 158
46.2512 135
46.4088 123
46.5663 124
46.7239 85
46.8815 121
47.039 117
47.1966 120
47.3542 99
47.5117 116
47.6693 101
47.8268 119
47.9844 129
48.142 96
48.2995 106
48.4571 110
48.6147 99
48.7722 99
48.9298 104
49.0874 124
49.2449 126
49.4025 134
49.56 123
49.7176 119
49.8752 144
50.0065 115

File: peaks.dat
#GIXRD fit results for sample series 220615
#First peak
#Sample (s)	Position (deg)		Area (arb. units)		FWHM (deg)		Comment
0	15.1423	0.00768931	337.193	12.4644	0.359233	0.010806
8	15.3186	0.00707132	619.102	21.5591	0.377075	0.0104166
13	15.5745	0.0078169	327.083	11.9128	0.312916	0.00987508
25	15.2831	0.011264	295.909	17.091	0.399519	0.0177033
120	15.4359	0.00836818	290.607	11.4558	0.333454	0.0110805
180	15.4497	0.00851516	358.475	14.5533	0.36993	0.0120659
300	15.5171	0.00779159	440.074	15.9741	0.36261	0.0107077

#Second peak
#Sample (s)	Position (deg)		Area (arb. units)		FWHM (deg)
0	21.5511	0.00705408	665.024	10.9532	0.495754	0.00793229
8	21.73	0.00935622	488.191	10.3295	0.523561	0.0106354
13	22.0489	0.00719567	1113.86	19.3081	0.471452	0.00801988	“peak shape differs from others, more symmetric and square-like”
25	21.7514	0.00746381	661.375	11.4843	0.498725	0.00840242
120	21.9094	0.00644633	959.036	14.5456	0.489569	0.0072321
180	21.953	0.00837011	1115.9	21.0025	0.528908	0.00953511
300	22.0121	0.0104169	494.552	11.8933	0.505196	0.0117558

#Third peak
#Sample (s)	Position (deg)		Area (arb. units)		FWHM (deg)
0	30.6439	0.0135103	800.345	25.8371	0.674077	0.0182038
8	30.9982	0.0106105	1226.32	30.5216	0.693497	0.0142874
13	31.4861	0.0120868	628.786	17.3673	0.599432	0.0146643
25	30.9423	0.0128417	772.361	23.3874	0.685113	0.0172527
120	31.2316	0.0132387	636.034	19.5355	0.625414	0.0166401
180	31.2758	0.0134511	647.722	19.7759	0.664136	0.0172099
300	31.4024	0.0113831	1119.94	28.1276	0.675871	0.0144278