Folder: XRD-data/Br-Cl_phases/XRD (part 2)

File: Si_ref.dat
10.0116 1263
10.1692 1250
10.3268 1269
10.4843 1262
10.6419 1220
10.7994 1278
10.957 1193
11.1146 1255
11.2721 1259
11.4297 1276
11.5873 1229
11.7448 1309
11.9024 1320
12.06 1317
12.2175 1293
12.3751 1328
12.5326 1315
12.6902 1276
12.8478 1240
13.0053 1295
13.1629 1338
13.3205 1354
13.478 1317
13.6356 1308
13.7932 1348
13.9507 1413
14.1083 1398
14.2658 1415
14.4234 1408
14.581 1408
14.7385 1368
14.8961 1395
15.0537 1463
15.2112 1466
15.3688 1445
15.5263 1498
15.6839 1496
15.8415 1537
15.999 1532
16.1566 1564
16.3142 1514
16.4717 1636
16.6293 1657
16.7869 1629
16.9444 1712
17.102 1785
17.2595 1694
17.4171 1778
17.5747 1756
17.7322 1701
17.8898 1812
18.0474 1734
18.2049 1807
18.3625 1811
18.5201 1920
18.6776 1850
18.8352 1887
18.9927 1928
19.1503 1870
19.3079 1890
19.4654 1869
19.623 1925
19.7806 1958
19.9381 1930
20.0957 1953
20.2533 1829
20.4108 1862
20.5684 1907
20.7259 1858
20.8835 1791
21.0411 1805
21.1986 1852
21.3562 1792
21.5138 1730
21.6713 1701
21.8289 1695
21.9864 1610
22.144 1616
22.3016 1538
22.4591 1612
22.6167 1474
22.7743 1526
22.9318 1505
23.0894 1525
23.247 1462
23.4045 1407
23.5621 1399
23.7196 1372
23.8772 1347
24.0348 1358
24.1923 1270
24.3499 1279
24.5075 1246
24.665 1289
24.8226 1209
24.9802 1210
25.1377 1187
25.2953 1154
25.4528 1176
25.6104 1100
25.768 1067
25.9255 1138
26.0831 1121
26.2407 1049
26.3982 1063
26.5558 1049
26.7133 1076
26.8709 1116
27.0285 1315
27.186 2011
27.3436 1613
27.5012 1663
27.6587 1655
27.8163 1812
27.9739 1828
28.1314 2054
28.289 2000
28.4465 2221
28.6041 2257
28.7617 3552
28.9192 2524
29.0768 3746
29.2344 1665
29.3919 993
29.5495 900
29.7071 884
29.8646 847
30.0222 865
30.1797 836
30.3373 830
30.4949 884
30.6524 797
30.81 822
30.9676 850
31.1251 825
31.2827 796
31.4403 814
31.5978 761
31.7554 854
31.9129 809
32.0705 731
32.2281 778
32.3856 780
32.5432 758
32.7008 780
32.8583 789
33.0159 797
33.1734 784
33.331 742
33.4886 727
33.6461 713
33.8037 725
33.9613 704
34.1188 708
34.2764 668
34.434 667
34.5915 659
34.7491 671
34.9066 684
35.0642 678
35.2218 694
35.3793 673
35.5369 640
35.6945 654
35.852 649
36.0096 626
36.1672 653
36.3247 663
36.4823 628
36.6398 639
36.7974 643
36.955 595
37.1125 640
37.2701 657
37.4277 654
37.5852 566
37.7428 618
37.9004 596
38.0579 594
38.2155 637
38.373 591
38.5306 605
38.6882 571
38.8457 618
39.0033 553
39.1609 621
39.3184 612
39.476 610
39.6335 574
39.7911 612
39.9487 582
40.1062 591
40.2638 563
40.4214 582
40.5789 621
40.7365 591
40.8941 586
41.0516 543
41.2092 610
41.3667 610
41.5243 515
41.6819 553
41.8394 587
41.997 550
42.1546 577
42.3121 592
42.4697 569
42.6273 562
42.7848 526
42.9424 601
43.0999 581
43.2575 564
43.4151 591
43.5726 609
43.7302 607
43.8878 588
44.0453 580
44.2029 590
44.3604 586
44.518 603
44.6756 590
44.8331 601
44.9907 671
45.1483 610
45.3058 662
45.4634 697
45.621 735
45.7785 778
45.9361 767
46.0936 760
46.2512 863
46.4088 884
46.5663 834
46.7239 961
46.8815 1000
47.039 866
47.1966 1416
47.3542 1489
47.5117 1177
47.6693 1150
47.8268 1183
47.9844 1217
48.142 1225
48.2995 1299
48.4571 1187
48.6147 726
48.7722 544
48.9298 478
49.0874 448
49.2449 490
49.4025 450
49.56 439
49.7176 423
49.8752 487
50.0065 427